sequence,ax,ay,az,gx,gy,gz
0,-1985,1127,862,26,382,-307
1,-2163,997,865,45,342,300
2,-2219,1022,813,162,264,789
3,-2043,1191,759,284,116,1467
4,-1713,1197,701,290,-84,2278
5,-1343,994,589,239,-315,2742
6,-994,808,454,244,-561,2967
7,-648,723,335,266,-800,3093
8,-327,644,249,249,-994,3053
9,-39,505,191,200,-1124,3081
10,344,291,140,177,-1203,3383
11,766,139,89,210,-1210,3551
12,1065,103,77,255,-1132,3382
13,1424,-1,29,316,-986,3651
14,1915,-48,17,401,-789,4172
15,2186,81,40,394,-487,3817
16,2159,133,57,270,-98,3381
17,2227,-78,63,125,248,3798
18,2481,-403,72,61,527,4249
19,2533,-530,106,61,752,4005
20,2288,-532,156,16,800,3775
21,2112,-535,218,-86,675,3812
22,2190,-793,305,-241,535,3836
23,2376,-1321,335,-343,423,4006
24,2304,-1665,327,-248,265,4247
25,2184,-1644,336,-64,40,4295
26,2206,-1528,351,23,-189,3816
27,2368,-1528,357,-61,-287,3249
28,2548,-1799,346,-196,-221,3507
29,2672,-2135,328,-214,-43,3886
30,2775,-2258,326,-117,145,3571
31,2813,-2151,370,-64,290,2706
32,2743,-1981,432,-137,407,1945
33,2562,-1792,467,-253,436,1663
34,2413,-1490,559,-341,320,1138
35,2377,-1113,734,-465,103,295
36,2413,-1000,894,-609,-148,-61
37,2537,-1197,973,-623,-386,-61
38,2753,-1413,1004,-423,-579,-327
39,2981,-1539,976,-114,-684,-944
40,3153,-1488,882,157,-649,-1494
41,3266,-1402,738,294,-511,-1932
42,3339,-1315,601,285,-332,-2486
43,3375,-1293,480,144,-137,-2954
44,3393,-1417,380,-47,52,-3247
45,3353,-1638,303,-175,193,-3470
46,3254,-1743,210,-211,242,-3644
47,3119,-1691,143,-219,186,-3715
48,3005,-1617,83,-227,101,-3932
49,2875,-1453,42,-231,57,-4363
50,2711,-1238,12,-259,46,-4583
51,2517,-1075,-16,-314,92,-4548
52,2293,-987,-30,-355,180,-4458
53,2070,-880,-29,-357,246,-4385
54,1906,-733,-23,-348,295,-4336
55,1702,-597,-16,-348,359,-4276
56,1472,-483,-14,-348,387,-4302
57,1370,-419,-13,-334,344,-4081
58,1223,-319,5,-281,280,-3847
59,933,-121,40,-210,170,-3906
60,721,98,67,-154,-38,-3919
61,562,325,107,-132,-278,-3819
62,439,572,150,-161,-488,-3838
63,323,771,197,-254,-646,-3838
64,194,847,240,-369,-745,-3780
65,14,864,308,-431,-759,-3604
66,-273,873,417,-406,-662,-3302
67,-610,940,577,-349,-446,-2782
68,-1044,1126,755,-378,-131,-2161
69,-1474,1219,892,-566,210,-1510
70,-1693,1067,976,-762,538,-1035
71,-1757,850,943,-825,826,-295
72,-1713,745,888,-707,1031,661
73,-1612,743,805,-468,1097,1781
74,-1453,836,729,-217,963,2736
75,-1252,961,664,-104,622,3062
76,-992,990,609,-174,161,2919
77,-657,781,547,-296,-286,2943
78,-299,435,471,-285,-649,3282
79,71,170,417,-100,-933,3496
80,417,66,365,178,-1147,3603
81,712,75,321,450,-1281,3712
82,1000,113,289,646,-1347,3701
83,1376,133,254,745,-1343,3738
84,1776,-16,206,780,-1240,3923
85,2066,-327,117,881,-1082,4033
86,2307,-392,29,1116,-953,4026
87,2612,-123,-1,1277,-766,3754
88,2806,-12,10,1192,-340,3381
89,2645,-166,15,1017,197,3693
90,2338,-520,-2,962,576,4328
91,2280,-765,9,1041,642,4785
92,2179,-663,63,1078,570,4307
93,2070,-581,135,848,506,3795
94,2131,-1110,124,427,351,4538
95,2280,-1839,24,192,108,5059
96,2333,-2012,-2,220,-125,4505
97,2361,-1899,7,207,-258,3484
98,2472,-2017,2,55,-264,3344
99,2632,-2375,-29,-65,-163,3889
100,2684,-2516,-51,-12,-11,3711
101,2686,-2305,-25,104,124,2753
102,2623,-1943,22,116,220,1935
103,2537,-1554,109,-11,289,1339
104,2479,-1272,218,-253,312,934
105,2466,-1238,332,-489,281,650
106,2502,-1296,475,-610,201,425
107,2553,-1398,612,-583,81,89
108,2622,-1445,679,-460,-58,-404
109,2685,-1375,668,-311,-196,-886
110,2759,-1343,586,-214,-304,-1314
111,2854,-1411,464,-171,-350,-1676
112,2931,-1422,379,-141,-306,-2153
113,3001,-1492,310,-168,-167,-2585
114,3045,-1668,222,-199,37,-2590
115,2974,-1769,165,-154,248,-2668
116,2829,-1766,141,-78,399,-2999
117,2656,-1742,108,-59,442,-3110
118,2533,-1758,67,-95,356,-2958
119,2434,-1732,19,-132,149,-2982
120,2362,-1506,-5,-167,-105,-3767
121,2344,-1271,-44,-256,-322,-4325
122,2416,-1199,-68,-340,-427,-4073
123,2550,-1236,-106,-323,-393,-3725
124,2504,-960,-104,-224,-244,-3949
125,2333,-542,-62,-257,-60,-4323
126,2202,-342,-53,-445,108,-4207
127,2072,-334,-55,-620,234,-3942
128,1865,-332,-59,-677,337,-4165
129,1620,-215,-37,-625,379,-4151
130,1360,-47,-22,-520,314,-3984
131,1117,195,2,-417,118,-3842
132,973,471,31,-390,-144,-3966
133,884,629,66,-427,-406,-4062
134,739,681,95,-446,-595,-4223
135,543,735,157,-415,-668,-4239
136,325,812,229,-355,-600,-3966
137,39,894,332,-343,-383,-3605
138,-363,974,467,-431,-69,-3286
139,-759,983,617,-620,283,-2921
140,-1098,892,707,-866,663,-2307
141,-1343,639,714,-1044,1047,-1448
142,-1506,394,696,-1006,1385,-430
143,-1645,334,677,-754,1579,598
144,-1704,460,647,-408,1527,1547
145,-1608,708,606,-107,1211,2355
146,-1356,881,576,27,698,2809
147,-1004,843,539,8,122,2933
148,-610,668,490,-14,-371,2931
149,-207,453,410,80,-727,3096
150,152,301,327,299,-996,3323
151,455,277,252,569,-1200,3302
152,848,314,198,793,-1314,3377
153,1316,245,137,955,-1313,3820
154,1806,170,27,1123,-1210,4075
155,2182,395,-21,1219,-1014,3681
156,2380,534,-28,1105,-652,3071
157,2512,351,-79,957,-146,3395
158,2547,235,-102,927,366,3923
159,2440,327,-77,865,754,3465
160,2271,305,-43,637,1006,3180
161,2132,1,-23,398,1141,3806
162,2133,-363,4,275,1041,4561
163,2143,-439,69,175,749,3910
164,2155,-487,122,-45,453,2755
165,2194,-838,117,-244,303,2922
166,2223,-1231,89,-241,241,3689
167,2298,-1462,57,-103,128,3641
168,2423,-1477,33,21,-53,3091
169,2493,-1316,27,37,-182,2750
170,2513,-1214,17,-73,-189,2651
171,2536,-1297,3,-248,-116,2686
172,2566,-1469,5,-381,-16,2697
173,2550,-1448,50,-436,96,2532
174,2501,-1339,132,-507,236,2175
175,2479,-1419,175,-603,406,1992
176,2417,-1447,252,-601,576,1865
177,2337,-1334,403,-532,693,1730
178,2279,-1287,549,-498,707,1685
179,2284,-1191,786,-514,614,1342
180,2369,-1270,965,-555,431,1084
181,2474,-1629,1006,-484,205,686
182,2548,-1843,935,-284,-1,-291
183,2580,-1918,775,-20,-147,-1017
184,2598,-1816,653,227,-227,-1375
185,2579,-1607,540,384,-283,-1802
186,2625,-1381,460,420,-353,-2367
187,2779,-1338,404,350,-407,-2748
188,2923,-1519,319,282,-387,-3025
189,3008,-1599,278,339,-302,-3319
190,3058,-1516,258,437,-197,-3551
191,3055,-1398,215,446,-88,-3695
192,2972,-1276,172,374,0,-3752
193,2872,-1150,142,271,54,-3898
194,2751,-1079,107,165,106,-4213
195,2667,-1045,66,111,182,-4230
196,2594,-952,51,136,302,-3880
197,2420,-747,48,168,463,-3902
198,2270,-553,38,114,563,-4004
199,2104,-359,25,-1,565,-4035
200,1899,-222,23,-138,559,-4264
201,1747,-239,15,-249,589,-4167
202,1602,-245,24,-231,633,-3867
203,1432,-66,50,-138,633,-3674
204,1209,177,85,-122,564,-3707
205,1016,290,121,-190,404,-3753
206,960,295,148,-218,187,-3527
207,897,296,163,-120,5,-3293
208,665,475,203,40,-128,-3448
209,406,745,264,141,-243,-3451
210,243,924,308,167,-342,-3059
211,-8,1071,345,129,-359,-2952
212,-410,1189,401,-7,-291,-3147
213,-877,1230,516,-222,-160,-3223
214,-1303,1175,660,-470,67,-2858
215,-1598,882,749,-658,400,-2005
216,-1779,614,769,-650,784,-1134
217,-1854,577,752,-448,1113,-72
218,-1786,652,689,-169,1293,1327
219,-1630,817,609,73,1249,2394
220,-1458,1039,559,138,943,2735
221,-1261,1062,506,6,456,2732
222,-967,880,448,-144,-74,2799
223,-619,650,367,-172,-542,3009
224,-255,505,287,-64,-898,3254
225,29,520,248,78,-1151,3201
226,235,527,227,163,-1326,2963
227,509,339,193,261,-1406,3352
228,942,71,134,461,-1409,4191
229,1326,2,91,687,-1396,4292
230,1514,97,54,824,-1343,3657
231,1772,95,-7,888,-1214,3735
232,2255,-30,-78,909,-977,4260
233,2659,-43,-115,863,-644,4359
234,2642,22,-97,724,-211,3759
235,2516,-101,-98,553,231,3853
236,2569,-355,-88,428,541,4926
237,2595,-424,-41,310,758,5119
238,2448,-465,29,72,966,4140
239,2298,-812,70,-207,1148,3774
240,2246,-1259,108,-313,1203,4729
241,2268,-1471,167,-317,1106,5239
242,2255,-1503,218,-416,949,4191
243,2152,-1568,241,-601,896,2751
244,2095,-1991,271,-722,951,2925
245,2132,-2497,320,-604,963,4149
246,2085,-2420,390,-330,858,4131
247,1975,-2136,453,-248,685,2907
248,1874,-2188,472,-371,507,2223
249,1769,-2351,461,-426,271,2624
250,1761,-2244,498,-315,-101,2608
251,1869,-1904,624,-214,-516,1307
252,2012,-1690,701,-261,-827,169
253,2197,-1749,699,-355,-1008,177
254,2492,-1770,730,-299,-1086,243
255,2787,-1581,822,-136,-1030,-451
256,3020,-1577,868,-73,-802,-1281
257,3187,-1845,785,-70,-443,-1609
258,3224,-2001,689,38,-51,-1899
259,3149,-1965,614,197,305,-2654
260,2966,-1830,548,246,602,-3341
261,2753,-1891,489,179,790,-3492
262,2576,-2110,478,178,821,-3250
263,2377,-2184,484,311,668,-3378
264,2219,-2103,445,488,339,-3702
265,2157,-1778,382,655,-69,-3915
266,2184,-1289,335,686,-441,-4164
267,2321,-1041,265,516,-685,-4104
268,2449,-1046,190,314,-755,-4076
269,2505,-1002,144,199,-698,-4348
270,2544,-717,99,110,-560,-4626
271,2554,-425,67,-76,-290,-4708
272,2447,-336,38,-334,122,-4671
273,2209,-371,20,-531,548,-4555
274,1944,-398,22,-610,892,-4282
275,1752,-471,37,-573,1148,-3991
276,1528,-357,78,-446,1308,-3786
277,1151,-117,140,-351,1332,-3720
278,842,27,215,-321,1149,-3643
279,706,97,273,-268,816,-3473
280,575,162,292,-132,485,-3315
281,360,389,346,46,223,-3252
282,88,716,415,146,16,-3224
283,-249,933,482,132,-129,-3113
284,-642,951,550,87,-199,-2889
285,-1104,880,590,118,-216,-2586
286,-1532,977,630,209,-206,-2307
287,-1802,1161,658,234,-157,-1812
288,-1884,1195,674,154,-57,-956
289,-1788,1124,660,67,54,-71
290,-1561,1082,629,18,131,651
291,-1296,1047,579,-22,147,1275
292,-1033,926,522,-51,94,1871
293,-802,749,442,-3,-14,2425
294,-617,632,354,138,-178,2884
295,-426,687,297,266,-408,3052
296,-232,698,279,266,-675,3093
297,2,466,223,220,-926,3372
298,263,192,170,278,-1118,3701
299,541,69,132,428,-1240,3774
300,835,-25,118,556,-1317,3828
301,1117,-213,65,682,-1362,4094
302,1471,-237,23,843,-1349,4353
303,1880,-207,7,894,-1200,4254
304,2157,-359,-27,837,-894,4006
305,2232,-578,-75,855,-528,4306
306,2347,-754,-106,966,-155,4814
307,2466,-998,-143,1057,188,4990
308,2408,-1137,-168,1097,377,5057
309,2273,-1180,-127,1037,414,5211
310,2232,-1446,-75,847,434,5320
311,2265,-2051,-99,646,461,5388
312,2380,-2624,-132,558,400,5975
313,2550,-2860,-87,513,275,6444
314,2778,-2890,3,360,247,5402
315,2911,-2691,56,72,412,3590
316,2877,-2429,46,-312,722,2637
317,2758,-2301,21,-673,1107,2514
318,2574,-2291,84,-873,1474,2127
319,2354,-2209,234,-897,1697,1270
320,2130,-2056,455,-842,1714,813
321,1947,-1986,663,-729,1523,778
322,1833,-1858,848,-534,1153,495
323,1820,-1702,1006,-334,652,-71
324,1948,-1672,1092,-207,97,-652
325,2207,-1756,1065,-113,-414,-1309
326,2548,-1892,939,21,-787,-1958
327,2915,-1968,765,204,-947,-2616
328,3145,-1867,617,348,-865,-3329
329,3245,-1785,473,375,-587,-3712
330,3260,-1786,361,337,-208,-3786
331,3174,-1797,306,268,159,-3827
332,3048,-1845,270,191,439,-3905
333,2898,-1883,230,158,607,-4098
334,2703,-1791,185,181,658,-4164
335,2537,-1568,175,202,603,-4140
336,2488,-1452,175,155,485,-4142
337,2498,-1428,152,134,380,-4133
338,2403,-1261,128,184,335,-4553
339,2270,-949,103,216,340,-5003
340,2197,-677,77,167,378,-4906
341,2057,-499,45,77,444,-4654
342,1692,-351,43,-1,494,-4889
343,1323,-151,67,-71,478,-5090
344,1156,-40,96,-116,405,-4422
345,1037,-55,106,-115,356,-3798
346,832,-114,114,-29,312,-3746
347,586,24,136,162,185,-3553
348,470,308,144,335,-7,-3138
349,410,597,152,359,-187,-2966
350,295,816,190,237,-327,-3028
351,210,896,240,75,-424,-2932
352,193,887,281,-20,-438,-2552
353,137,940,311,-12,-328,-2192
354,-92,1158,361,14,-114,-2066
355,-432,1397,448,-42,131,-1841
356,-799,1503,546,-198,373,-1373
357,-1165,1422,613,-373,588,-930
358,-1502,1288,675,-475,734,-631
359,-1705,1248,734,-494,781,-192
360,-1710,1188,765,-469,728,538
361,-1548,1057,741,-392,611,1281
362,-1307,902,671,-228,455,1972
363,-1060,844,593,-21,261,2446
364,-864,934,533,110,-6,2474
365,-635,944,454,107,-318,2417
366,-334,758,361,79,-584,2738
367,-15,520,285,142,-793,3130
368,301,367,205,300,-979,3251
369,618,359,163,479,-1094,3277
370,993,342,136,591,-1113,3604
371,1332,243,97,642,-1074,3967
372,1680,140,38,674,-1015,4017
373,2011,80,-1,676,-875,3958
374,2263,-5,-3,634,-593,3954
375,2345,-73,-18,583,-234,4040
376,2451,-148,-23,500,2,4067
377,2538,-160,-8,365,147,3908
378,2362,-180,40,182,402,3640
379,2086,-524,60,4,658,3916
380,2106,-1010,83,-3,614,4884
381,2349,-1171,142,75,361,4913
382,2320,-908,193,-1,216,3497
383,2240,-1081,216,-295,277,2715
384,2337,-1838,156,-454,343,4020
385,2455,-2252,150,-204,307,5052
386,2514,-1860,225,65,238,4083
387,2499,-1344,327,-84,240,2650
388,2447,-1283,342,-568,333,2612
389,2387,-1545,283,-983,504,3112
390,2353,-1790,304,-1149,728,3071
391,2289,-1858,443,-1145,942,2354
392,2218,-1942,591,-1107,1095,1842
393,2102,-2105,657,-972,1175,1825
394,1981,-2219,707,-688,1160,1728
395,1887,-2161,822,-334,1011,1275
396,1828,-1992,944,-51,736,661
397,1816,-1881,1003,93,363,213
398,1892,-1893,1018,169,-72,-252
399,2077,-1974,1004,251,-501,-899
400,2291,-2061,924,378,-856,-1702
401,2493,-2045,796,548,-1095,-2383
402,2728,-1938,685,716,-1204,-2715
403,2945,-1836,566,816,-1181,-2995
404,3063,-1729,467,815,-1039,-3506
405,3086,-1688,369,712,-814,-3846
406,3033,-1691,261,601,-555,-3899
407,2972,-1708,176,557,-303,-3847
408,2902,-1602,134,583,-89,-3969
409,2776,-1389,111,563,68,-4215
410,2633,-1285,58,455,156,-4281
411,2468,-1134,23,369,185,-4492
412,2264,-873,32,286,208,-4815
413,2011,-620,47,149,243,-4737
414,1825,-601,45,17,260,-4453
415,1801,-742,30,4,253,-4190
416,1798,-720,21,125,222,-4026
417,1636,-385,53,251,163,-4145
418,1395,78,78,192,101,-4312
419,1253,258,88,-71,52,-4232
420,1232,123,68,-315,60,-4027
421,1141,-18,64,-340,123,-3700
422,936,167,109,-197,208,-3606
423,695,577,175,-142,282,-3633
424,492,855,240,-285,342,-3404
425,354,912,316,-495,410,-3121
426,206,861,401,-626,535,-3016
427,-91,838,473,-636,734,-2954
428,-579,930,518,-558,965,-2741
429,-1120,1037,532,-464,1150,-2235
430,-1593,1117,562,-420,1258,-1680
431,-1979,1122,578,-429,1295,-1210
432,-2240,1057,564,-434,1221,-666
433,-2306,1011,550,-364,1006,71
434,-2148,927,517,-217,672,1039
435,-1856,856,464,-17,260,1885
436,-1543,855,405,159,-202,2330
437,-1245,905,359,230,-688,2410
438,-916,864,291,197,-1143,2471
439,-535,668,189,177,-1500,2739
440,-146,525,105,249,-1715,2969
441,170,520,63,343,-1818,3000
442,457,488,33,408,-1834,3092
443,878,407,1,484,-1742,3558
444,1314,343,16,535,-1529,3922
445,1747,247,21,540,-1197,3822
446,2100,188,27,540,-803,3981
447,2321,234,56,521,-388,4008
448,2592,333,72,423,81,3803
449,2782,357,95,207,635,3818
450,2801,70,119,-42,1173,4048
451,2808,-192,141,-145,1544,4217
452,2730,7,231,-217,1752,3742
453,2442,245,326,-542,1984,2893
454,1906,141,386,-1027,2218,2973
455,1441,-367,465,-1396,2210,3905
456,1481,-944,607,-1522,1919,4507
457,1590,-1321,755,-1520,1576,3833
458,1391,-1499,829,-1524,1238,2957
459,1118,-1724,838,-1510,752,3232
460,1000,-1969,833,-1419,126,3637
461,1067,-2203,825,-1314,-571,3442
462,1279,-2495,729,-1189,-1263,3223
463,1531,-2707,611,-946,-1856,3031
464,1842,-2727,505,-618,-2320,2721
465,2238,-2581,406,-307,-2629,2186
466,2719,-2232,401,-76,-2709,1616
467,3236,-1783,490,29,-2496,1285
468,3740,-1389,649,20,-1973,763
469,4121,-1142,817,-84,-1175,203
470,4204,-1047,941,-251,-213,-88
471,3986,-1168,949,-389,738,-431
472,3584,-1434,863,-392,1503,-839
473,3131,-1680,774,-237,1976,-1324
474,2688,-1803,733,-33,2122,-1877
475,2348,-1897,748,114,1963,-2175
476,2137,-2000,748,247,1570,-2391
477,2060,-1990,745,417,1021,-2864
478,2108,-1881,746,583,417,-3289
479,2258,-1777,724,719,-135,-3501
480,2431,-1615,662,847,-542,-3701
481,2576,-1356,580,943,-762,-3885
482,2771,-1155,499,948,-816,-4031
483,2887,-997,411,887,-728,-4226
484,2854,-812,329,804,-488,-4357
485,2763,-603,256,678,-149,-4533
486,2557,-375,198,469,239,-4789
487,2229,-232,158,211,595,-4677
488,1912,-171,139,-23,893,-4487
489,1692,-241,125,-212,1141,-4396
490,1557,-283,130,-301,1344,-4133
491,1335,-195,150,-306,1496,-3814
492,1026,-79,191,-292,1535,-3671
493,790,8,262,-257,1405,-3455
494,698,103,329,-193,1165,-3270
495,598,205,376,-111,933,-3208
496,459,338,431,-20,711,-3149
497,450,495,476,69,477,-3006
498,449,582,490,155,280,-2835
