sequence,ax,ay,az,gx,gy,gz
0,517,229,192,-642,-173,63
1,507,154,181,-600,-29,-190
2,480,115,167,-522,150,-488
3,413,106,171,-426,370,-754
4,261,104,168,-315,602,-962
5,75,77,153,-199,794,-997
6,-160,47,146,-86,944,-976
7,-457,48,143,24,1062,-1122
8,-779,83,164,101,1137,-1342
9,-1078,167,233,130,1161,-1564
10,-1442,254,336,115,1137,-1840
11,-1830,323,404,71,1043,-2002
12,-2097,367,498,28,845,-2078
13,-2264,440,536,10,581,-2178
14,-2270,544,553,-10,362,-2273
15,-2213,621,602,-47,267,-2427
16,-2198,687,632,-99,305,-2501
17,-2199,746,650,-168,456,-2476
18,-2185,732,696,-261,676,-2471
19,-2361,605,704,-375,880,-2388
20,-2649,487,662,-446,1006,-2278
21,-2805,448,652,-408,1070,-2461
22,-2911,357,744,-290,1110,-2697
23,-3122,271,770,-129,1123,-2381
24,-3346,321,710,86,1089,-1919
25,-3337,424,684,291,1001,-1931
26,-3223,426,760,384,865,-2093
27,-3335,454,747,406,747,-1858
28,-3432,588,674,429,690,-1647
29,-3368,665,607,425,626,-1811
30,-3183,536,623,315,499,-1602
31,-3139,440,557,164,375,-1072
32,-3123,451,476,85,328,-1326
33,-3022,567,452,57,304,-2011
34,-2877,584,466,1,204,-2040
35,-2827,460,465,-77,88,-1238
36,-2928,420,403,-94,35,-609
37,-3035,521,366,-41,18,-834
38,-3106,732,378,-3,-38,-1208
39,-3111,995,442,20,-171,-1217
40,-3023,1269,483,155,-286,-1124
41,-2785,1567,482,388,-291,-883
42,-2505,1799,441,569,-227,-356
43,-2370,1831,373,589,-150,439
44,-2447,1730,342,463,-51,1391
45,-2610,1550,330,240,52,2114
46,-2803,1322,384,-27,165,2162
47,-3207,1229,421,-278,303,1676
48,-3642,1158,443,-470,335,1366
49,-3853,1052,446,-594,164,1618
50,-3869,947,441,-669,-137,1946
51,-3748,849,439,-718,-409,2018
52,-3568,740,478,-737,-567,1930
53,-3531,612,523,-720,-622,2053
54,-3549,470,531,-656,-668,2452
55,-3497,344,504,-556,-757,2742
56,-3321,253,505,-463,-836,2661
57,-3227,212,526,-375,-850,2361
58,-3168,165,531,-265,-854,2334
59,-3053,143,509,-134,-916,2525
60,-2822,171,506,-3,-990,2525
61,-2532,246,550,120,-978,2216
62,-2422,336,600,243,-854,1950
63,-2381,406,618,354,-710,2062
64,-2294,439,604,451,-649,2268
65,-2205,504,570,547,-657,2194
66,-2118,642,516,628,-653,1954
67,-1919,792,506,641,-625,1826
68,-1739,882,490,580,-612,1871
69,-1565,884,470,467,-598,2106
70,-1368,850,461,335,-528,2200
71,-1241,825,440,202,-402,1897
72,-1179,787,426,74,-276,1551
73,-1137,722,422,-37,-220,1409
74,-1072,648,391,-119,-254,1404
75,-913,573,345,-177,-356,1418
76,-658,486,338,-229,-475,1335
77,-467,419,305,-283,-563,1171
78,-277,328,288,-348,-624,1061
79,-45,217,286,-416,-676,1007
80,187,114,280,-473,-721,862
81,342,59,249,-497,-716,484
82,435,53,232,-477,-619,-47
83,492,57,227,-426,-448,-417
84,483,29,215,-351,-247,-526
85,433,5,221,-239,-43,-599
86,335,12,221,-88,150,-749
87,238,28,214,69,333,-886
88,93,26,198,207,517,-937
89,-113,42,180,327,686,-1031
90,-299,110,171,437,827,-1281
91,-497,222,171,524,959,-1506
92,-769,323,175,573,1084,-1524
93,-1107,408,203,587,1181,-1415
94,-1503,496,250,571,1240,-1418
95,-1830,561,324,490,1231,-1485
96,-2079,565,407,357,1143,-1686
97,-2379,577,418,223,1026,-2068
98,-2630,647,347,112,842,-2460
99,-2629,608,370,12,577,-2528
100,-2636,670,293,-49,347,-2343
101,-2547,709,287,-94,200,-2434
102,-2437,606,411,-132,217,-2518
103,-2635,667,330,-125,395,-2449
104,-2721,783,247,-124,581,-2513
105,-2565,698,408,-150,708,-2665
106,-2902,539,481,-93,851,-2347
107,-3292,608,421,119,1025,-1855
108,-3371,701,381,372,1120,-2044
109,-3385,527,470,551,1074,-2155
110,-3608,577,365,729,958,-1686
111,-3747,882,222,928,795,-1819
112,-3489,920,301,1022,609,-2113
113,-3227,706,427,991,505,-1565
114,-3285,674,273,958,468,-987
115,-3446,823,88,954,374,-1371
116,-3402,913,47,860,199,-1736
117,-3047,722,169,610,-7,-1213
118,-2816,525,190,326,-169,-589
119,-2867,607,83,132,-291,-910
120,-2899,912,59,31,-415,-1760
121,-2778,1213,128,-80,-512,-1840
122,-2683,1353,159,-277,-555,-1052
123,-2644,1504,143,-460,-514,-732
124,-2653,1695,196,-512,-328,-1464
125,-2611,1815,244,-481,-72,-1716
126,-2584,1786,216,-467,102,-710
127,-2643,1579,132,-510,125,655
128,-2744,1297,59,-576,10,1456
129,-2816,1113,30,-666,-146,1698
130,-2840,1033,80,-817,-238,1568
131,-2907,1019,145,-1007,-224,1365
132,-3001,949,230,-1191,-160,1340
133,-3263,820,252,-1282,-107,1459
134,-3556,686,252,-1236,-93,1575
135,-3727,541,339,-1076,-172,1658
136,-3762,431,396,-853,-352,1882
137,-3685,340,444,-611,-572,2068
138,-3557,296,488,-347,-745,2108
139,-3416,303,540,-69,-831,2242
140,-3296,304,586,201,-813,2448
141,-3204,320,620,465,-707,2522
142,-3216,342,570,711,-591,2614
143,-3174,418,507,894,-543,2814
144,-3123,521,414,998,-568,2809
145,-2949,615,352,1022,-594,2742
146,-2732,669,327,1003,-567,2690
147,-2591,744,278,957,-505,2724
148,-2460,823,227,856,-458,2606
149,-2373,828,174,716,-427,2361
150,-2194,812,159,566,-402,2397
151,-1973,797,177,415,-419,2459
152,-1853,770,173,252,-465,2434
153,-1779,783,147,80,-511,2343
154,-1602,829,151,-91,-547,2010
155,-1370,806,207,-273,-580,1670
156,-1282,764,218,-444,-592,1680
157,-1250,751,194,-574,-627,1711
158,-1137,744,169,-689,-735,1589
159,-902,707,155,-834,-891,1464
160,-629,658,173,-1001,-1004,1291
161,-385,614,186,-1153,-1031,980
162,-147,560,195,-1278,-990,672
163,117,472,230,-1374,-885,493
164,212,353,236,-1412,-729,321
165,212,195,218,-1368,-588,141
166,246,58,206,-1255,-516,0
167,344,-27,217,-1082,-479,-159
168,449,-73,220,-859,-418,-374
169,466,-86,195,-609,-305,-509
170,430,-63,158,-365,-131,-506
171,414,-25,159,-149,107,-575
172,350,-12,168,32,389,-770
173,140,-14,137,182,680,-888
174,-137,9,101,317,931,-993
175,-422,40,115,424,1102,-1208
176,-816,53,131,486,1184,-1309
177,-1303,104,162,517,1147,-1316
178,-1646,198,235,526,979,-1484
179,-1796,344,322,492,789,-1799
180,-1913,519,369,398,713,-2124
181,-1945,634,468,246,758,-2338
182,-2031,676,560,73,873,-2423
183,-2303,703,586,-61,967,-2440
184,-2675,801,567,-123,968,-2458
185,-2799,815,636,-155,860,-2465
186,-2753,780,734,-177,702,-2337
187,-2864,778,768,-198,622,-2182
188,-3003,844,784,-201,642,-2300
189,-2909,834,870,-211,656,-2466
190,-2944,730,915,-245,654,-2090
191,-3015,751,831,-241,626,-1706
192,-2908,685,887,-189,592,-1984
193,-2968,648,895,-115,605,-1957
194,-3008,675,852,-13,651,-1547
195,-2995,669,791,86,728,-1393
196,-3028,703,757,144,797,-1456
197,-3094,747,722,171,804,-1528
198,-3146,711,660,176,752,-1406
199,-3058,605,636,149,703,-1101
200,-2980,601,641,110,667,-1047
201,-3091,728,530,93,573,-1489
202,-2989,756,528,60,425,-1811
203,-2888,754,588,6,293,-1554
204,-2907,854,597,-31,195,-1123
205,-3037,1039,590,-31,100,-1106
206,-3186,1277,589,-12,-28,-1303
207,-3150,1529,623,38,-181,-1477
208,-2940,1698,682,112,-280,-1486
209,-2676,1769,721,177,-283,-1039
210,-2455,1720,656,194,-248,-209
211,-2367,1563,561,141,-212,673
212,-2489,1458,471,21,-184,1342
213,-2726,1424,433,-167,-183,1597
214,-2883,1352,455,-412,-197,1514
215,-2970,1229,540,-667,-165,1429
216,-3183,1118,588,-846,-95,1503
217,-3402,1012,577,-918,-95,1671
218,-3533,881,572,-908,-207,1821
219,-3557,702,612,-828,-352,1981
220,-3581,491,657,-646,-446,2252
221,-3612,353,672,-349,-505,2511
222,-3590,356,643,-16,-597,2552
223,-3473,405,608,241,-712,2548
224,-3294,460,576,395,-779,2638
225,-3139,547,556,488,-771,2623
226,-3011,627,528,531,-723,2502
227,-2894,682,514,505,-664,2461
228,-2811,702,496,438,-606,2481
229,-2704,689,467,357,-567,2536
230,-2559,679,428,294,-565,2422
231,-2473,692,423,263,-570,2023
232,-2433,742,412,251,-551,1673
233,-2298,771,388,221,-539,1695
234,-2088,745,410,131,-553,1987
235,-1983,704,400,-1,-589,2228
236,-1879,668,374,-147,-645,2314
237,-1687,629,362,-289,-716,2136
238,-1437,567,376,-421,-779,1793
239,-1247,514,381,-529,-799,1496
240,-1109,488,375,-597,-784,1274
241,-928,442,416,-621,-776,1070
242,-783,388,439,-597,-780,950
243,-629,358,429,-536,-787,868
244,-449,350,437,-465,-786,725
245,-273,343,454,-407,-769,648
246,-128,314,447,-367,-747,730
247,107,251,446,-353,-704,826
248,305,167,424,-340,-628,675
249,446,95,392,-316,-515,383
250,552,19,367,-266,-359,37
251,543,-46,319,-170,-163,-275
252,466,-78,273,-32,51,-458
253,400,-82,267,133,266,-517
254,308,-78,261,306,460,-503
255,137,-84,242,466,618,-521
256,-58,-73,221,602,727,-643
257,-241,-22,217,707,795,-860
258,-409,58,222,762,839,-1095
259,-654,148,221,763,896,-1274
260,-984,256,228,731,980,-1434
261,-1345,334,248,695,1024,-1496
262,-1720,387,284,676,958,-1298
263,-2031,463,298,698,782,-1177
264,-2165,580,303,755,582,-1567
265,-2223,705,294,796,463,-2139
266,-2343,868,249,781,458,-2334
267,-2380,1026,269,717,518,-2448
268,-2455,1132,319,608,621,-2572
269,-2689,1200,318,461,723,-2510
270,-2999,1214,284,320,746,-2471
271,-3136,1264,255,187,659,-2479
272,-2940,1251,354,17,523,-2514
273,-2940,1117,426,-181,499,-2513
274,-3186,1045,396,-348,604,-2274
275,-3241,959,392,-469,661,-2200
276,-3174,697,480,-556,574,-2379
277,-3273,561,462,-551,443,-2383
278,-3379,657,362,-435,353,-2453
279,-3195,657,394,-292,276,-2544
280,-2944,447,484,-192,235,-2112
281,-2849,288,521,-99,309,-1419
282,-3037,410,377,95,421,-1683
283,-3176,486,315,320,492,-2384
284,-3091,444,307,452,500,-2086
285,-2966,428,304,489,416,-1238
286,-2937,549,278,502,271,-1109
287,-2890,677,339,508,173,-1584
288,-2937,750,361,512,163,-1700
289,-3115,868,325,582,206,-1379
290,-3185,1062,291,777,270,-1301
291,-3121,1212,272,1011,326,-1324
292,-2957,1368,235,1160,289,-888
293,-2770,1499,182,1159,161,-248
294,-2561,1521,124,1009,30,314
295,-2465,1501,48,710,-77,874
296,-2443,1417,-22,287,-174,1362
297,-2427,1347,-47,-208,-218,1569
298,-2524,1345,-67,-734,-164,1423
299,-2680,1293,-66,-1267,-69,1199
300,-2871,1104,-16,-1746,16,1185
301,-3234,847,1,-2063,64,1341
302,-3580,623,4,-2151,45,1458
303,-3711,415,114,-2029,-85,1318
304,-3766,219,188,-1739,-348,1252
305,-3747,119,239,-1347,-653,1635
306,-3581,112,304,-909,-907,2093
307,-3355,159,338,-513,-1057,2337
308,-3132,241,380,-223,-1070,2407
309,-2994,356,434,-25,-965,2342
310,-2970,470,474,95,-799,2348
311,-2975,526,503,163,-622,2471
312,-3004,549,504,202,-485,2530
313,-3083,577,497,218,-437,2485
314,-3100,596,511,205,-484,2466
315,-3038,601,525,165,-571,2527
316,-2943,662,492,108,-666,2480
317,-2828,697,390,2,-792,2264
318,-2614,699,346,-175,-940,2057
319,-2362,664,368,-374,-1062,1840
320,-2141,550,400,-526,-1112,1704
321,-2003,453,344,-591,-1136,1690
322,-1781,302,362,-575,-1186,1594
323,-1640,213,347,-478,-1211,1543
324,-1450,246,305,-328,-1210,1473
325,-1077,268,334,-173,-1188,1223
326,-764,261,365,-47,-1093,1072
327,-635,274,323,55,-928,1205
328,-513,272,282,154,-783,1355
329,-368,267,249,255,-681,1369
330,-125,268,263,337,-574,1220
331,110,247,311,383,-415,952
332,210,198,302,397,-215,853
333,215,174,265,395,-16,897
334,274,174,269,384,159,733
335,286,178,281,357,334,303
336,169,173,259,318,505,-102
337,-22,173,226,290,609,-338
338,-163,177,214,287,628,-469
339,-236,178,211,294,602,-540
340,-319,168,212,301,566,-629
341,-459,172,213,321,535,-883
342,-594,185,204,339,513,-1158
343,-739,180,198,333,520,-1257
344,-923,130,196,309,552,-1231
345,-1121,114,200,295,571,-1359
346,-1296,156,190,310,538,-1905
347,-1555,150,174,317,486,-2294
348,-1796,219,126,279,432,-2122
349,-1876,301,159,233,383,-2131
350,-2045,382,201,195,393,-2406
351,-2278,576,265,136,459,-2492
352,-2537,741,320,31,533,-2430
353,-2701,854,392,-113,562,-2373
354,-2787,898,564,-279,550,-2409
355,-3106,883,628,-423,569,-2382
356,-3317,925,629,-525,631,-2229
357,-3203,783,755,-605,656,-2416
358,-3399,514,846,-633,611,-2514
359,-3659,397,803,-547,519,-2203
360,-3610,399,725,-356,366,-2264
361,-3313,322,738,-157,186,-2474
362,-3122,240,743,3,107,-2217
363,-3123,298,685,154,158,-1929
364,-3047,331,674,297,284,-2018
365,-2917,313,667,396,421,-2068
366,-2894,231,615,445,528,-1843
367,-2947,209,590,489,604,-1669
368,-3039,268,553,541,647,-1832
369,-3116,344,504,580,632,-1929
370,-3130,476,453,593,528,-1710
371,-3221,644,417,561,347,-1446
372,-3397,895,402,508,132,-1245
373,-3454,1282,434,516,-40,-1412
374,-3258,1585,477,614,-73,-1832
375,-2847,1873,493,701,57,-1762
376,-2439,1941,368,698,248,-1159
377,-2332,1786,188,561,370,69
378,-2516,1645,28,284,355,1423
379,-2715,1421,-23,-63,233,2074
380,-2917,1252,-15,-439,122,2090
381,-3106,1101,44,-829,78,1848
382,-3235,920,82,-1200,47,1705
383,-3298,683,133,-1502,-12,1659
384,-3490,500,189,-1644,-79,1592
385,-3743,375,265,-1586,-183,1488
386,-3895,219,370,-1379,-371,1594
387,-3851,110,424,-1085,-598,1929
388,-3745,56,466,-749,-798,2172
389,-3620,62,502,-418,-946,2370
390,-3457,100,535,-138,-1018,2523
391,-3344,151,556,84,-987,2555
392,-3275,250,557,260,-894,2516
393,-3229,336,532,372,-804,2515
394,-3155,378,497,427,-748,2567
395,-3053,348,487,467,-708,2585
396,-2972,350,472,530,-662,2618
397,-2884,361,434,611,-638,2611
398,-2720,316,435,691,-648,2622
399,-2608,305,431,783,-658,2689
400,-2578,411,349,888,-677,2715
401,-2414,573,288,947,-727,2642
402,-2119,699,255,887,-794,2548
403,-1802,763,269,693,-820,2555
404,-1558,811,261,441,-773,2407
405,-1390,797,275,205,-673,2046
406,-1323,747,281,29,-567,1771
407,-1311,726,245,-103,-524,1755
408,-1159,732,231,-230,-579,1711
409,-979,702,260,-378,-681,1535
410,-820,707,255,-551,-766,1475
411,-563,678,260,-740,-839,1298
412,-352,579,288,-928,-886,1027
413,-222,464,281,-1107,-886,950
414,-50,329,292,-1248,-875,810
415,126,193,297,-1310,-878,384
416,247,80,277,-1286,-877,-43
417,361,27,276,-1195,-830,-262
418,471,-12,275,-1033,-742,-379
419,546,-77,250,-820,-621,-351
420,582,-143,229,-573,-441,-237
421,626,-150,232,-299,-179,-313
422,639,-87,235,-32,155,-608
423,556,-17,233,181,531,-836
424,411,23,234,333,901,-912
425,167,34,218,463,1216,-1048
426,-171,20,204,583,1451,-1206
427,-542,11,239,702,1598,-1309
428,-1032,48,268,831,1645,-1380
429,-1485,115,314,950,1575,-1373
430,-1857,233,399,1046,1394,-1383
431,-2135,380,457,1091,1136,-1495
432,-2300,553,504,1047,847,-1653
433,-2403,758,542,886,573,-1887
434,-2466,884,608,628,368,-2205
435,-2577,997,607,345,240,-2431
436,-2626,1072,612,83,175,-2536
437,-2647,1034,634,-180,165,-2505
438,-2672,897,635,-429,189,-2453
439,-2790,821,604,-603,238,-2537
440,-2784,780,603,-709,305,-2714
441,-2847,699,604,-784,389,-2799
442,-2932,627,615,-843,486,-2540
443,-2931,583,655,-866,571,-2311
444,-3066,481,706,-850,632,-2331
445,-3252,369,744,-793,693,-2235
446,-3367,321,702,-685,734,-2080
447,-3338,282,688,-551,726,-2106
448,-3351,268,735,-388,693,-2265
449,-3460,279,758,-202,681,-2269
450,-3445,319,725,-32,679,-1998
451,-3297,368,680,90,642,-1776
452,-3193,404,666,155,566,-1872
453,-3198,474,660,195,494,-2074
454,-3180,584,639,240,432,-2072
455,-3141,688,620,281,358,-1819
456,-3157,825,619,348,288,-1539
457,-3138,1020,649,516,295,-1606
458,-3078,1212,689,795,395,-1736
459,-2890,1398,654,1105,497,-1263
460,-2603,1505,519,1332,512,-417
461,-2535,1470,304,1367,428,546
462,-2592,1441,146,1176,275,1609
463,-2582,1358,67,788,100,2190
464,-2534,1205,94,272,16,2072
465,-2582,1056,184,-262,91,1645
466,-2814,971,204,-749,242,1324
467,-3081,839,227,-1164,327,1210
468,-3415,643,244,-1416,281,1222
469,-3695,479,243,-1454,98,1407
470,-3782,360,287,-1313,-187,1587
471,-3770,294,321,-1070,-508,1744
472,-3618,305,356,-797,-792,1944
473,-3394,363,432,-561,-965,2174
474,-3191,428,502,-396,-1002,2348
475,-3083,445,555,-293,-931,2440
476,-3123,464,585,-203,-781,2524
477,-3143,498,607,-100,-604,2538
478,-3199,447,601,17,-472,2442
479,-3288,425,566,170,-416,2506
480,-3292,464,512,344,-436,2631
481,-3169,525,463,467,-510,2717
482,-2994,585,425,505,-594,2779
483,-2789,612,433,467,-654,2787
484,-2591,657,436,373,-687,2666
485,-2450,706,402,251,-703,2400
486,-2262,697,376,125,-697,2219
487,-2037,607,392,23,-673,2150
488,-1895,485,373,-18,-636,2132
489,-1743,363,363,-3,-600,2177
490,-1618,329,309,45,-594,2152
491,-1453,354,247,88,-636,1948
492,-1216,368,249,103,-695,1719
493,-979,364,247,89,-738,1632
494,-796,338,216,56,-763,1661
495,-587,298,209,4,-774,1658
496,-323,237,219,-58,-769,1518
497,-161,167,204,-135,-747,1323
498,4,107,189,-237,-708,1184
