sequence,ax,ay,az,gx,gy,gz
0,1032,2080,-78,667,-392,520
1,1078,2166,-13,634,-284,549
2,973,2086,12,424,-131,409
3,856,1775,-25,193,-41,325
4,820,1511,-56,92,-2,332
5,830,1476,-52,85,39,308
6,758,1495,-5,71,72,280
7,624,1403,-3,-2,71,257
8,535,1304,-38,-93,58,160
9,567,1216,-65,-182,80,167
10,614,1136,-77,-217,150,274
11,610,1188,-135,-214,250,51
12,530,1280,-228,-237,348,-53
13,466,1269,-254,-292,392,278
14,477,1198,-208,-357,399,163
15,495,1138,-98,-451,468,-345
16,386,972,-6,-562,623,-499
17,178,736,-1,-570,764,-412
18,-19,643,17,-403,807,-384
19,-126,693,-8,-167,769,-302
20,-125,817,-70,51,679,-77
21,-100,985,-145,247,519,139
22,26,1258,-197,372,303,124
23,136,1423,-218,345,117,70
24,141,1379,-220,233,-22,-26
25,82,1237,-178,162,-147,-187
26,-7,1041,-88,137,-261,-222
27,-62,840,-90,172,-355,-162
28,-57,692,-222,350,-481,-62
29,51,865,-240,598,-607,-14
30,212,1213,-130,667,-632,7
31,248,1315,-47,537,-563,8
32,177,1180,-55,377,-485,-127
33,153,1061,-167,308,-465,-302
34,275,1179,-231,357,-509,-295
35,453,1437,-199,405,-519,-97
36,496,1583,-236,324,-435,-80
37,505,1764,-354,181,-319,-319
38,587,1907,-427,72,-261,-231
39,699,1985,-432,-56,-217,-127
40,734,2134,-374,-229,-127,-452
41,708,2167,-379,-397,-28,-648
42,755,2220,-415,-521,56,-575
43,836,2427,-408,-627,170,-558
44,783,2502,-368,-748,308,-477
45,614,2440,-309,-886,420,-376
46,484,2448,-215,-992,449,-327
47,405,2464,-127,-1063,395,-327
48,342,2423,-43,-1127,299,-335
49,358,2432,54,-1219,200,-337
50,423,2523,181,-1326,103,-333
51,447,2562,284,-1402,10,-359
52,454,2455,373,-1437,-67,-435
53,474,2320,432,-1426,-102,-521
54,471,2232,489,-1364,-83,-485
55,465,2241,527,-1255,-18,-435
56,490,2298,553,-1101,75,-379
57,531,2411,595,-933,198,-287
58,529,2522,624,-758,336,-220
59,504,2651,653,-529,422,-105
60,476,2748,659,-207,404,-14
61,417,2815,619,147,321,-36
62,345,2899,572,390,246,-3
63,243,2881,532,451,225,41
64,87,2744,472,419,225,70
65,-78,2631,400,456,156,290
66,-135,2690,376,594,-30,496
67,-60,2849,346,716,-279,565
68,93,2984,309,770,-517,664
69,232,3048,277,790,-710,808
70,385,3098,266,816,-865,864
71,589,3094,238,828,-952,772
72,744,2992,191,818,-949,524
73,738,2669,118,842,-895,360
74,739,2352,20,960,-835,499
75,831,2218,-45,1126,-765,766
76,940,2297,-38,1208,-658,812
77,1001,2343,-21,1107,-505,624
78,1035,2181,-5,894,-322,564
79,1004,1904,-5,698,-114,557
80,910,1679,-13,556,111,370
81,795,1525,0,427,317,261
82,713,1434,0,343,443,315
83,631,1398,-20,351,456,309
84,579,1457,-56,355,417,200
85,584,1554,-109,256,397,242
86,599,1606,-95,54,404,387
87,617,1555,-69,-194,430,394
88,596,1398,-63,-397,458,213
89,551,1289,-64,-499,485,-57
90,529,1269,-37,-529,487,-90
91,513,1212,2,-552,483,25
92,513,1146,2,-575,516,-184
93,523,1116,13,-562,587,-383
94,502,1058,-7,-517,697,-294
95,440,1044,-44,-435,846,-278
96,329,1065,-48,-342,997,-359
97,204,1070,-29,-269,1113,-258
98,94,1033,-9,-190,1144,-33
99,-36,933,22,-61,1065,38
100,-172,831,28,116,882,-39
101,-223,850,-47,344,612,-151
102,-146,994,-106,614,292,-65
103,-49,1163,-120,797,21,113
104,12,1285,-97,817,-146,24
105,-60,1197,-196,715,-252,-114
106,-127,1069,-409,643,-403,-100
107,-124,1076,-425,686,-639,139
108,-69,1177,-327,637,-845,227
109,13,1243,-272,418,-955,72
110,51,1178,-250,175,-1004,-35
111,54,995,-228,77,-1050,-56
112,98,854,-250,134,-1104,-130
113,170,949,-193,278,-1129,-238
114,277,1204,-136,375,-1078,-186
115,454,1411,-207,421,-983,79
116,664,1540,-296,460,-875,422
117,835,1726,-330,474,-727,329
118,905,2034,-375,401,-506,-199
119,930,2266,-530,252,-259,-322
120,986,2343,-657,126,-49,182
121,1042,2408,-610,6,167,540
122,998,2539,-443,-227,448,161
123,820,2495,-326,-545,686,-324
124,617,2228,-323,-730,752,-331
125,522,2073,-293,-664,672,-128
126,477,2095,-230,-499,537,51
127,531,2364,-156,-425,390,28
128,689,2739,-78,-526,279,-132
129,807,2837,-49,-775,236,-203
130,796,2602,-42,-1104,261,-299
131,710,2242,-31,-1360,286,-455
132,677,2172,38,-1407,255,-625
133,662,2315,125,-1307,187,-816
134,657,2351,156,-1227,136,-899
135,709,2311,168,-1169,148,-716
136,757,2331,202,-1090,249,-424
137,717,2424,258,-996,393,-397
138,633,2563,311,-889,503,-454
139,599,2736,360,-691,522,-278
140,576,2912,388,-339,440,-13
141,503,3034,409,51,312,174
142,426,3053,388,305,186,303
143,367,3025,363,414,76,233
144,356,2959,352,430,-14,252
145,376,2853,297,458,-128,423
146,396,2804,239,557,-291,394
147,362,2759,191,669,-472,287
148,380,2703,142,773,-651,430
149,480,2679,95,888,-813,746
150,624,2687,73,969,-932,942
151,790,2746,55,962,-1012,757
152,885,2655,23,826,-1036,465
153,867,2320,-47,656,-1018,305
154,829,2109,-59,621,-1004,263
155,846,2043,-37,626,-989,282
156,885,1879,-70,571,-930,248
157,928,1709,-145,525,-799,136
158,981,1669,-157,526,-605,128
159,981,1654,-124,493,-355,101
160,906,1608,-99,393,-65,-33
161,738,1439,-123,312,204,52
162,583,1321,-162,389,361,359
163,616,1435,-201,552,413,493
164,673,1686,-227,602,473,107
165,608,1867,-202,454,586,-210
166,486,1862,-169,155,713,-115
167,354,1647,-158,-131,784,-70
168,225,1378,-180,-253,753,-187
169,148,1255,-212,-181,652,-260
170,190,1394,-218,-32,548,-154
171,322,1579,-186,22,482,43
172,401,1601,-166,-52,487,-26
173,336,1504,-169,-151,534,-251
174,208,1363,-146,-204,562,-159
175,86,1217,-173,-187,496,188
176,110,1253,-247,-94,331,294
177,248,1446,-234,-26,164,201
178,274,1449,-201,-111,107,40
179,136,1234,-268,-278,144,-277
180,-46,1066,-357,-348,137,-415
181,-100,1017,-360,-242,-4,-80
182,-74,1047,-302,-80,-204,129
183,-41,1120,-270,-4,-349,-188
184,-47,1099,-336,9,-446,-346
185,-10,1059,-400,53,-542,-96
186,85,1106,-348,108,-619,202
187,138,1112,-212,92,-649,209
188,62,899,-150,6,-651,-37
189,-34,630,-282,10,-693,-235
190,28,644,-377,224,-785,-212
191,203,908,-300,470,-831,71
192,343,1186,-152,519,-757,167
193,374,1240,-160,402,-606,-141
194,347,1178,-372,330,-480,-405
195,447,1469,-518,393,-375,-461
196,636,1907,-449,415,-225,-83
197,815,2079,-396,229,-16,238
198,812,2023,-507,-21,184,-155
199,772,2181,-558,-196,334,-703
200,731,2384,-474,-370,497,-663
201,636,2372,-356,-606,677,-322
202,508,2312,-260,-825,817,-412
203,367,2307,-169,-976,863,-674
204,218,2241,-123,-1048,804,-671
205,144,2343,-38,-1065,677,-548
206,148,2526,52,-1083,503,-387
207,169,2533,91,-1131,283,-130
208,254,2486,127,-1192,52,-8
209,374,2555,201,-1252,-134,-187
210,433,2611,299,-1320,-254,-489
211,441,2523,389,-1386,-319,-509
212,485,2381,459,-1389,-341,-397
213,538,2301,512,-1281,-319,-491
214,577,2329,555,-1122,-240,-602
215,613,2368,592,-1000,-90,-485
216,617,2408,618,-909,124,-222
217,537,2468,637,-780,329,-144
218,445,2570,649,-573,452,-281
219,385,2710,610,-278,480,-347
220,315,2824,541,114,433,-210
221,209,2849,464,493,355,45
222,99,2926,409,733,292,181
223,2,3016,352,798,258,199
224,-116,2973,305,765,221,261
225,-201,2912,245,764,112,298
226,-175,2952,168,827,-89,332
227,-62,3004,109,866,-309,371
228,73,2987,68,825,-474,408
229,164,2861,39,749,-588,414
230,252,2684,10,698,-685,322
231,382,2495,-33,701,-742,344
232,546,2403,-82,760,-730,544
233,729,2491,-97,781,-642,591
234,858,2556,-49,630,-471,286
235,826,2347,-17,349,-219,0
236,720,2061,9,155,28,74
237,608,1833,67,109,216,218
238,506,1683,101,172,331,237
239,464,1645,88,282,382,248
240,494,1722,66,365,416,308
241,542,1830,65,338,481,416
242,549,1860,73,200,574,477
243,520,1838,60,33,658,457
244,456,1736,44,-81,694,458
245,362,1586,38,-133,672,564
246,265,1449,-2,-118,594,714
247,228,1451,-16,-58,474,845
248,253,1568,3,-82,345,964
249,305,1664,22,-223,224,810
250,333,1677,4,-419,136,341
251,325,1632,-19,-628,103,-129
252,270,1500,-22,-778,112,-202
253,245,1354,-4,-816,135,-44
254,221,1239,45,-801,182,-130
255,144,1118,69,-760,272,-444
256,83,1073,90,-658,411,-512
257,-21,988,94,-524,579,-213
258,-180,877,67,-350,718,31
259,-327,842,26,-141,762,231
260,-391,961,18,41,671,463
261,-335,1203,70,116,462,595
262,-284,1268,114,84,183,487
263,-269,1167,140,39,-111,92
264,-283,996,148,44,-386,-160
265,-286,893,154,111,-611,-157
266,-257,881,171,205,-773,17
267,-224,893,202,270,-891,260
268,-86,983,239,290,-993,291
269,119,1068,270,295,-1063,142
270,237,1072,255,326,-1080,-89
271,315,1110,234,346,-1010,-206
272,454,1285,228,336,-867,-178
273,652,1443,197,370,-714,-96
274,803,1521,160,439,-559,-170
275,861,1659,111,472,-361,-497
276,891,1860,67,399,-114,-663
277,930,2020,-23,240,127,-649
278,926,2067,-94,125,292,-610
279,876,2115,-117,85,401,-703
280,794,2307,-57,17,513,-966
281,644,2469,9,-108,601,-1011
282,480,2471,75,-221,598,-769
283,348,2360,134,-292,514,-509
284,252,2330,180,-339,379,-524
285,170,2465,218,-364,201,-765
286,102,2614,257,-373,-16,-739
287,128,2712,276,-426,-218,-532
288,218,2768,290,-581,-353,-447
289,272,2737,271,-823,-397,-500
290,256,2622,242,-1029,-380,-558
291,260,2635,227,-1082,-350,-565
292,290,2796,229,-997,-320,-473
293,320,2985,239,-836,-275,-317
294,375,3145,252,-634,-206,-112
295,384,3220,237,-367,-122,43
296,313,3163,206,0,-43,104
297,208,3065,142,440,33,135
298,129,3082,91,833,110,199
299,111,3216,53,1061,188,246
300,90,3255,32,1142,251,280
301,77,3215,5,1154,293,442
302,101,3227,4,1130,306,534
303,39,3147,25,1009,293,415
304,-108,2871,28,864,211,385
305,-141,2578,1,866,8,669
306,29,2447,-56,987,-266,821
307,243,2473,-90,1053,-478,539
308,308,2429,-86,967,-571,369
309,378,2305,-60,813,-599,574
310,499,2159,-40,646,-578,718
311,613,2083,-22,483,-492,549
312,617,1943,-39,316,-353,265
313,527,1669,-87,195,-206,221
314,514,1488,-129,197,-87,446
315,562,1524,-112,283,40,534
316,575,1645,-117,340,185,408
317,523,1671,-166,318,326,412
318,493,1604,-230,264,434,622
319,482,1552,-263,216,508,743
320,468,1622,-250,110,574,554
321,419,1660,-248,-88,630,240
322,326,1533,-281,-250,615,216
323,275,1413,-296,-303,505,408
324,269,1403,-267,-323,361,310
325,274,1439,-224,-410,244,31
326,305,1465,-246,-521,137,5
327,397,1492,-282,-569,7,161
328,471,1569,-282,-610,-98,-74
329,457,1606,-205,-727,-122,-540
330,358,1500,-173,-898,-94,-552
331,263,1291,-161,-972,-105,-213
332,218,1067,-126,-939,-153,-65
333,154,863,-67,-874,-171,-381
334,33,678,-30,-772,-136,-785
335,-90,508,-40,-545,-104,-759
336,-112,445,-86,-145,-116,-370
337,-78,550,-116,359,-144,-88
338,-69,812,-108,754,-133,-64
339,-114,965,-89,898,-76,11
340,-160,1035,-261,881,-38,176
341,-135,1189,-445,938,-124,306
342,3,1408,-430,1014,-290,502
343,123,1591,-289,894,-360,440
344,81,1574,-246,585,-303,154
345,-8,1385,-383,320,-285,184
346,67,1267,-479,303,-409,332
347,283,1447,-367,406,-549,199
348,451,1795,-172,341,-515,-248
349,440,1875,-97,86,-357,-454
350,396,1656,-190,-139,-232,-94
351,429,1506,-275,-192,-161,148
352,503,1648,-211,-121,-86,-97
353,564,1825,-177,-54,13,-335
354,667,1986,-258,-33,122,-250
355,737,2178,-276,-17,234,-213
356,737,2416,-196,-99,378,-391
357,709,2498,-124,-316,525,-474
358,646,2376,-97,-574,629,-487
359,569,2319,-72,-736,681,-744
360,433,2310,-38,-810,698,-1051
361,230,2183,-6,-863,670,-1083
362,38,2060,22,-862,570,-838
363,-60,2115,71,-802,428,-329
364,-13,2306,115,-724,262,75
365,112,2594,182,-708,109,34
366,173,2753,235,-836,13,-147
367,217,2778,268,-1034,-27,-83
368,232,2721,283,-1179,-43,47
369,285,2729,272,-1218,-85,41
370,399,2839,235,-1167,-125,-199
371,486,3099,215,-1041,-119,-431
372,507,3333,213,-781,-135,-266
373,506,3298,190,-295,-232,74
374,513,3247,193,221,-289,131
375,450,3229,217,487,-182,-197
376,313,3079,227,522,58,-316
377,142,2844,228,562,283,53
378,-7,2740,234,711,374,359
379,-107,2750,229,883,324,383
380,-145,2794,229,986,186,446
381,-113,2801,229,1018,-4,649
382,2,2748,191,996,-202,881
383,181,2676,119,950,-385,995
384,348,2651,30,878,-526,767
385,422,2462,-43,739,-594,597
386,440,2135,-75,645,-635,734
387,495,1994,-70,672,-702,779
388,631,2076,-67,711,-767,554
389,761,2114,-70,633,-760,296
390,805,1923,-101,489,-659,223
391,831,1740,-113,423,-506,269
392,848,1689,-101,416,-327,170
393,811,1641,-104,395,-117,12
394,720,1527,-138,396,109,-3
395,605,1493,-190,479,312,91
396,539,1730,-213,573,457,110
397,466,1911,-231,521,554,82
398,379,1883,-264,315,614,182
399,323,1777,-289,99,613,345
400,315,1715,-296,-30,524,409
401,297,1694,-275,-136,389,168
402,267,1701,-299,-312,273,-138
403,260,1687,-354,-529,184,-104
404,323,1555,-393,-706,99,65
405,410,1451,-451,-803,52,-114
406,435,1398,-414,-826,95,-471
407,342,1260,-274,-838,251,-522
408,182,1003,-144,-833,463,-328
409,-21,697,-38,-741,664,-255
410,-250,421,6,-534,834,-267
411,-436,278,-9,-198,887,13
412,-524,297,-55,281,745,404
413,-485,564,-73,743,469,491
414,-376,928,-87,957,195,330
415,-315,1054,-112,903,-29,260
416,-279,906,-240,746,-215,352
417,-214,831,-511,717,-423,394
418,-16,1053,-661,842,-691,397
419,229,1366,-579,860,-884,356
420,314,1418,-385,597,-869,140
421,242,1186,-375,223,-721,-52
422,219,1005,-582,76,-646,47
423,334,1046,-679,234,-705,273
424,511,1389,-563,406,-738,169
425,613,1628,-470,330,-637,-84
426,673,1749,-549,124,-464,-170
427,765,1935,-559,-22,-305,-118
428,808,1969,-563,-144,-168,-99
429,826,2011,-581,-283,-29,-304
430,814,2165,-478,-450,131,-576
431,824,2260,-314,-665,319,-634
432,764,2082,-146,-829,503,-530
433,592,1821,-22,-866,649,-592
434,409,1819,57,-785,733,-824
435,257,2036,112,-647,752,-795
436,175,2293,151,-515,700,-301
437,141,2422,166,-486,606,190
438,140,2502,140,-590,489,179
439,185,2634,137,-752,343,-117
440,235,2645,125,-872,186,-199
441,274,2582,70,-882,24,-124
442,339,2711,12,-828,-136,-148
443,495,3078,-22,-827,-257,-34
444,682,3448,-53,-936,-290,76
445,757,3574,-112,-1081,-245,-86
446,751,3523,-168,-1076,-202,-304
447,746,3356,-189,-778,-189,-288
448,750,3090,-180,-216,-158,-91
449,744,2992,-110,358,-38,-43
450,685,3036,-32,708,176,-109
451,579,3063,18,838,422,-89
452,432,2999,45,859,604,43
453,254,2890,70,880,655,86
454,136,2827,89,933,573,289
455,101,2734,85,974,386,597
456,159,2670,42,956,147,698
457,222,2535,-38,872,-105,686
458,253,2316,-104,797,-369,742
459,345,2198,-132,739,-633,767
460,504,2177,-155,646,-850,615
461,674,2225,-184,488,-960,278
462,766,2183,-191,283,-938,-15
463,722,1964,-205,123,-812,-151
464,698,1782,-195,66,-616,50
465,693,1635,-171,70,-372,460
466,693,1554,-142,139,-141,574
467,676,1548,-125,247,37,453
468,644,1640,-116,289,204,371
469,571,1715,-126,238,366,358
470,492,1643,-153,200,434,552
471,460,1515,-149,209,420,734
472,482,1534,-140,182,401,575
473,447,1541,-207,121,375,286
474,397,1522,-299,72,308,246
475,412,1566,-320,25,213,396
476,459,1652,-351,-91,153,339
477,466,1683,-414,-238,118,100
478,457,1656,-422,-365,73,-3
479,430,1578,-365,-514,40,-19
480,347,1394,-310,-674,21,-119
481,226,1201,-248,-790,-4,-252
482,170,1105,-185,-818,-51,-262
483,132,994,-148,-747,-123,-210
484,61,853,-88,-650,-152,-385
485,-101,630,-34,-599,-107,-634
486,-260,392,-99,-473,-88,-632
487,-341,272,-212,-126,-182,-348
488,-291,397,-298,340,-352,-55
489,-147,703,-298,699,-503,87
490,-30,964,-368,825,-558,73
491,57,1142,-407,796,-551,40
492,71,1190,-311,660,-501,111
493,-2,1091,-304,458,-445,96
494,-71,978,-471,357,-491,-59
495,-21,1043,-486,440,-652,-90
496,109,1250,-337,492,-778,21
497,230,1422,-208,361,-779,1
498,266,1393,-247,130,-712,-43
