sequence,ax,ay,az,gx,gy,gz
0,379,1318,-341,476,-543,-138
1,425,1434,-347,465,-479,-202
2,435,1480,-368,438,-416,-129
3,442,1496,-338,392,-349,-50
4,413,1514,-383,309,-257,-131
5,399,1618,-501,268,-192,-136
6,448,1788,-553,269,-196,108
7,558,1995,-511,204,-214,148
8,647,2098,-540,36,-206,-88
9,671,2169,-620,-151,-180,-280
10,671,2278,-597,-304,-149,-252
11,714,2365,-454,-482,-85,-136
12,695,2281,-291,-691,21,-162
13,605,2020,-206,-815,103,-397
14,511,1811,-200,-753,137,-620
15,483,1882,-204,-549,165,-544
16,500,2137,-172,-360,232,-201
17,534,2360,-106,-324,336,143
18,518,2347,-41,-437,442,243
19,456,2178,-1,-522,483,99
20,418,2066,46,-480,449,-1
21,439,2114,75,-354,376,73
22,497,2282,80,-221,299,118
23,587,2473,48,-153,241,92
24,688,2677,2,-186,223,104
25,783,2831,-69,-305,236,49
26,776,2853,-176,-420,248,-204
27,686,2818,-286,-426,227,-350
28,586,2818,-363,-297,152,-254
29,562,2816,-425,-94,36,33
30,599,2807,-486,143,-89,228
31,655,2923,-501,364,-197,163
32,715,3060,-482,477,-257,-61
33,737,2936,-486,487,-249,-103
34,716,2672,-478,549,-209,61
35,701,2586,-471,700,-178,107
36,718,2719,-484,807,-162,37
37,734,2762,-462,762,-137,6
38,712,2569,-455,622,-86,86
39,683,2363,-457,547,-49,124
40,683,2262,-416,547,-47,53
41,656,2065,-377,567,-67,28
42,656,1983,-375,646,-94,41
43,700,2121,-368,710,-102,13
44,757,2201,-378,628,-64,21
45,782,2121,-396,439,27,-89
46,695,1868,-429,271,140,-267
47,551,1657,-460,231,222,-339
48,470,1625,-493,288,262,-241
49,473,1755,-516,312,301,-100
50,492,1865,-532,199,361,-56
51,461,1776,-541,-9,430,-58
52,424,1652,-518,-156,467,-98
53,390,1592,-498,-232,484,-203
54,332,1501,-472,-267,498,-160
55,297,1444,-435,-259,502,10
56,303,1481,-362,-264,517,65
57,244,1423,-307,-316,555,-36
58,106,1272,-310,-337,568,-43
59,-32,1110,-300,-226,501,166
60,-23,1179,-262,-24,362,357
61,105,1508,-235,37,242,179
62,159,1631,-173,-198,223,-52
63,33,1267,-151,-526,277,-72
64,-160,802,-148,-608,271,-69
65,-256,633,-142,-407,153,-103
66,-225,759,-124,-121,-14,1
67,-140,955,-132,58,-145,114
68,-76,1103,-203,93,-231,103
69,-69,1115,-288,60,-310,75
70,-64,1063,-328,64,-414,125
71,-5,1079,-387,126,-528,140
72,99,1201,-404,180,-614,120
73,161,1294,-394,93,-620,6
74,193,1267,-513,-36,-590,-164
75,230,1271,-631,-9,-607,-222
76,282,1386,-554,97,-640,-270
77,318,1533,-390,67,-579,-356
78,274,1496,-392,-123,-422,-326
79,254,1481,-493,-203,-316,-167
80,328,1645,-469,-123,-291,39
81,429,1892,-350,-127,-221,76
82,450,2019,-251,-314,-63,11
83,381,1982,-296,-532,71,-6
84,342,1936,-313,-572,66,148
85,408,2097,-245,-508,9,229
86,457,2368,-128,-571,33,118
87,451,2436,-30,-794,117,87
88,432,2264,16,-1010,181,53
89,403,2089,53,-1063,204,-73
90,378,2118,122,-968,208,-85
91,386,2295,186,-866,222,4
92,466,2491,227,-822,247,154
93,585,2565,241,-834,283,173
94,650,2529,239,-850,333,-10
95,652,2474,260,-824,385,-113
96,640,2446,289,-745,432,-10
97,619,2479,283,-595,449,29
98,634,2664,253,-433,433,13
99,675,2861,235,-337,407,28
100,661,2878,205,-299,380,111
101,628,2848,180,-229,315,204
102,591,2819,162,-104,208,176
103,549,2747,125,82,71,190
104,514,2689,90,333,-85,223
105,511,2691,71,575,-243,233
106,562,2733,32,729,-374,321
107,663,2778,-14,776,-464,357
108,748,2702,-35,738,-503,261
109,738,2507,-76,708,-505,-7
110,677,2391,-118,751,-504,-177
111,598,2334,-142,807,-513,-114
112,579,2265,-189,851,-551,13
113,667,2314,-231,891,-583,165
114,763,2411,-244,849,-565,163
115,759,2407,-212,681,-483,-176
116,652,2237,-175,470,-362,-393
117,552,1994,-162,359,-258,-238
118,502,1854,-156,397,-193,15
119,485,1856,-164,507,-150,155
120,480,1928,-194,587,-107,167
121,479,2014,-205,581,-51,142
122,455,2036,-191,456,27,208
123,406,1949,-182,274,96,370
124,350,1812,-184,154,116,436
125,321,1707,-206,119,83,450
126,315,1625,-228,113,28,431
127,314,1565,-245,84,-22,354
128,334,1512,-252,37,-71,299
129,364,1494,-257,-20,-108,182
130,388,1466,-250,-85,-127,35
131,417,1393,-259,-131,-122,-14
132,424,1334,-284,-115,-85,-116
133,419,1358,-318,-57,-16,-168
134,407,1409,-328,-27,82,-43
135,343,1318,-346,-50,178,71
136,240,1132,-384,-78,248,25
137,152,1014,-384,-72,269,-163
138,64,965,-356,-58,266,-328
139,-39,870,-302,-49,242,-256
140,-115,743,-324,-26,189,-138
141,-176,708,-356,77,86,-146
142,-168,793,-352,203,-56,-147
143,-98,908,-332,277,-190,-99
144,-54,985,-382,282,-281,-143
145,-10,1041,-470,287,-352,-206
146,65,1128,-529,311,-406,-114
147,159,1253,-594,321,-421,3
148,261,1380,-651,303,-405,126
149,359,1486,-656,238,-347,201
150,438,1660,-570,101,-240,154
151,446,1736,-531,-111,-111,53
152,422,1659,-676,-318,-9,98
153,437,1686,-802,-414,49,257
154,524,1828,-710,-429,64,429
155,619,2003,-522,-483,82,415
156,632,2137,-322,-634,123,222
157,592,2169,-140,-841,164,-6
158,561,2147,-19,-998,175,-184
159,510,2055,14,-1056,153,-152
160,471,2009,19,-1063,135,-78
161,480,2117,52,-1054,133,-106
162,525,2302,127,-1047,132,-49
163,534,2342,172,-1070,142,62
164,564,2263,176,-1111,169,122
165,606,2236,187,-1134,218,96
166,647,2361,248,-1134,295,13
167,711,2529,331,-1149,379,-25
168,738,2537,381,-1168,454,-134
169,685,2374,379,-1129,510,-327
170,640,2286,377,-984,549,-310
171,622,2397,397,-772,581,-73
172,584,2579,427,-567,600,141
173,964,3714,712,-365,562,-10
174,747,3201,498,167,406,-697
175,528,2725,414,373,437,-822
176,488,2613,413,226,655,-463
177,352,2131,295,287,694,662
178,256,2035,208,596,594,518
179,286,2382,154,847,415,314
180,368,2681,104,934,192,345
181,405,2770,79,903,-43,277
182,411,2688,62,834,-288,431
183,438,2589,23,793,-539,603
184,488,2641,-25,804,-802,480
185,580,2800,-54,799,-1042,116
186,702,2842,-117,693,-1189,-105
187,778,2688,-190,566,-1217,-24
188,791,2543,-160,489,-1159,32
189,738,2416,-67,390,-1060,-104
190,663,2181,-46,273,-956,-193
191,666,1926,-102,274,-865,-86
192,714,1794,-153,450,-768,129
193,756,1862,-161,632,-618,239
194,754,1989,-132,624,-402,233
195,731,1994,-158,444,-166,257
196,714,1866,-205,280,25,342
197,668,1714,-211,205,173,314
198,592,1613,-177,168,316,234
199,517,1534,-157,146,437,373
200,493,1496,-176,138,514,546
201,499,1495,-201,151,548,551
202,488,1522,-231,195,554,432
203,466,1617,-250,217,556,392
204,458,1615,-271,145,559,712
205,461,1487,-282,34,533,988
206,458,1386,-202,-61,491,743
207,413,1372,-90,-212,502,84
208,273,1268,-34,-415,569,-366
209,54,1056,-22,-556,630,-304
210,-156,806,-17,-581,625,-71
211,-318,596,-2,-480,507,-1
212,-413,542,-8,-278,282,-116
213,-389,614,-24,-60,-14,-97
214,-243,702,-65,131,-329,55
215,-14,848,-92,270,-588,47
216,172,977,-67,330,-716,-223
217,169,851,-35,300,-701,-467
218,81,632,-97,297,-632,-496
219,101,634,-147,457,-623,-465
220,185,737,-150,683,-638,-377
221,262,914,-131,805,-580,-240
222,289,1130,-124,791,-456,-276
223,313,1256,-201,716,-352,-334
224,380,1305,-345,694,-297,-242
225,466,1487,-402,743,-249,-202
226,561,1815,-371,711,-147,-245
227,594,1957,-429,542,-4,-242
228,595,1995,-562,389,116,-195
229,654,2192,-589,334,175,-89
230,725,2493,-516,219,235,-75
231,713,2592,-469,-46,301,-245
232,648,2517,-521,-287,304,-558
233,573,2532,-629,-381,241,-753
234,538,2600,-647,-385,156,-465
235,560,2619,-574,-404,86,-146
236,593,2555,-518,-499,51,-320
237,569,2465,-482,-631,47,-676
238,500,2333,-449,-727,67,-641
239,448,2191,-425,-702,101,-330
240,431,2146,-439,-548,127,-122
241,463,2320,-475,-403,153,-41
242,493,2622,-509,-337,179,-36
243,503,2904,-569,-332,201,2
244,488,3051,-656,-358,229,21
245,450,3063,-776,-362,245,33
246,399,3022,-911,-292,229,34
247,333,2967,-983,-143,176,94
248,348,2970,-938,43,95,252
249,409,3018,-831,182,31,305
250,429,3089,-711,229,-5,213
251,449,3106,-577,200,-51,165
252,488,2918,-461,144,-103,243
253,492,2567,-413,174,-148,367
254,501,2319,-438,397,-224,484
255,587,2392,-444,737,-331,553
256,682,2585,-420,931,-393,626
257,697,2616,-415,911,-412,644
258,693,2475,-456,803,-438,638
259,731,2353,-497,721,-472,634
260,734,2281,-460,609,-473,528
261,661,2158,-407,397,-438,333
262,581,2000,-422,175,-415,209
263,590,1862,-504,60,-406,235
264,687,1775,-543,7,-346,278
265,699,1648,-504,-84,-193,22
266,583,1496,-449,-208,16,-226
267,484,1346,-444,-274,195,-80
268,451,1270,-466,-217,289,120
269,485,1316,-470,-76,311,192
270,561,1443,-427,30,337,146
271,613,1542,-331,4,435,56
272,573,1503,-295,-175,598,58
273,443,1327,-333,-337,723,31
274,333,1176,-362,-330,745,86
275,301,1174,-325,-190,697,194
276,291,1294,-278,-79,644,161
277,240,1406,-295,-99,591,82
278,157,1446,-413,-151,474,78
279,137,1538,-449,-123,265,212
280,184,1699,-350,-191,88,136
281,103,1569,-209,-440,26,-52
282,-113,1139,-103,-718,2,23
283,-298,661,-94,-785,-135,60
284,-341,421,-88,-546,-418,-34
285,-217,478,-86,-169,-708,-171
286,-43,700,-138,142,-862,-279
287,108,857,-189,291,-868,-138
288,198,904,-385,330,-793,19
289,280,990,-562,430,-732,-27
290,399,1125,-491,530,-651,16
291,451,1114,-353,475,-466,123
292,380,885,-439,402,-264,58
293,351,847,-649,527,-153,-123
294,433,1174,-656,743,-87,-36
295,519,1484,-530,759,28,237
296,530,1488,-569,572,175,254
297,524,1476,-709,422,272,19
298,548,1685,-783,367,307,-116
299,635,1983,-778,238,334,70
300,717,2136,-711,-18,351,274
301,734,2121,-609,-338,338,85
302,687,2042,-473,-662,320,-299
303,598,1872,-318,-895,287,-395
304,553,1705,-208,-949,192,-273
305,628,1782,-196,-840,44,-411
306,773,2150,-248,-729,-50,-681
307,848,2592,-255,-753,-4,-794
308,867,2827,-211,-948,175,-478
309,805,2739,-151,-1179,388,-151
310,621,2446,-97,-1266,494,-311
311,466,2249,-58,-1154,455,-458
312,441,2370,-26,-906,344,-378
313,461,2690,-2,-675,242,-293
314,470,2973,9,-607,175,-158
315,453,3041,-2,-685,126,-10
316,443,2985,-35,-752,47,-8
317,454,2942,-80,-686,-80,-167
318,476,2867,-121,-501,-197,-160
319,520,2705,-168,-225,-260,121
320,595,2633,-233,109,-277,327
321,704,2785,-278,402,-260,300
322,778,2951,-288,545,-212,247
323,760,2896,-280,539,-148,238
324,682,2685,-289,513,-112,214
325,552,2443,-302,586,-150,133
326,472,2334,-319,765,-267,34
327,483,2397,-370,966,-433,-21
328,508,2536,-435,1092,-604,-133
329,520,2636,-502,1077,-727,-305
330,585,2699,-519,944,-775,-356
331,646,2617,-511,747,-740,-210
332,675,2436,-509,577,-650,-166
333,646,2308,-507,463,-522,-314
334,586,2157,-500,386,-380,-280
335,520,2011,-499,367,-244,-79
336,484,1978,-506,393,-132,46
337,487,2018,-497,429,-40,204
338,484,1965,-491,462,51,529
339,469,1938,-503,451,171,742
340,475,2007,-513,355,293,682
341,466,2018,-476,182,394,624
342,416,1892,-378,-41,468,743
343,337,1716,-369,-248,496,638
344,280,1597,-358,-375,452,353
345,264,1466,-298,-476,371,326
346,261,1327,-238,-549,281,336
347,270,1227,-228,-563,200,263
348,341,1199,-199,-540,137,247
349,403,1212,-158,-544,123,154
350,411,1139,-128,-605,186,65
351,375,999,-127,-671,312,28
352,265,736,-129,-655,440,-29
353,155,532,-115,-516,527,-142
354,49,457,-80,-293,574,-313
355,-46,492,-42,-61,592,-341
356,-119,513,-44,136,574,-34
357,-117,603,-145,325,492,150
358,-92,755,-244,518,351,51
359,-41,947,-238,637,200,-54
360,17,1060,-238,651,63,-55
361,41,1119,-377,611,-66,-155
362,98,1236,-385,564,-191,-256
363,175,1322,-269,466,-273,-101
364,211,1287,-222,345,-338,-22
365,252,1202,-276,293,-426,-235
366,349,1283,-294,308,-480,-461
367,426,1487,-253,307,-466,-514
368,476,1565,-304,271,-432,-311
369,548,1661,-392,256,-401,-215
370,612,1890,-400,230,-341,-389
371,640,2101,-391,92,-216,-506
372,615,2112,-457,-75,-68,-424
373,566,2122,-502,-146,70,-292
374,545,2252,-428,-175,207,-247
375,487,2341,-300,-250,339,-243
376,399,2316,-234,-356,450,-220
377,309,2231,-235,-390,510,-93
378,257,2226,-295,-298,489,43
379,260,2410,-346,-183,421,132
380,329,2641,-361,-193,359,341
381,424,2776,-362,-321,311,514
382,467,2800,-371,-464,244,411
383,453,2690,-412,-580,142,194
384,426,2494,-472,-634,9,181
385,477,2468,-533,-568,-143,278
386,609,2679,-594,-403,-290,353
387,784,2955,-684,-245,-393,461
388,928,3102,-833,-134,-436,470
389,1009,2963,-1026,23,-437,350
390,1087,2883,-1126,343,-414,240
391,1176,3075,-1059,710,-350,87
392,1166,3238,-971,835,-193,-21
393,1009,3165,-946,745,-21,-49
394,819,2939,-917,626,50,-86
395,668,2713,-840,576,10,-206
396,546,2544,-778,597,-86,-351
397,454,2453,-735,649,-217,-291
398,411,2423,-696,678,-384,-103
399,440,2428,-668,642,-558,62
400,528,2433,-634,528,-680,135
401,609,2344,-601,346,-723,147
402,625,2135,-587,145,-696,64
403,642,1949,-563,5,-622,-19
404,675,1808,-503,-57,-505,74
405,705,1636,-460,-56,-345,273
406,728,1533,-454,1,-159,353
407,708,1529,-481,78,39,219
408,666,1584,-458,120,255,201
409,621,1598,-413,93,480,428
410,544,1496,-435,59,658,602
411,489,1478,-490,88,748,482
412,448,1575,-581,145,777,263
413,445,1700,-577,138,779,332
414,460,1715,-489,-5,791,496
415,398,1551,-422,-231,807,274
416,277,1312,-363,-439,789,-67
417,179,1082,-285,-545,708,-193
418,112,900,-265,-511,583,-193
419,87,837,-231,-384,465,-237
420,66,837,-192,-280,387,-258
421,21,827,-205,-254,376,-347
422,-53,702,-218,-235,396,-334
423,-75,547,-233,-145,393,-209
424,-125,458,-282,40,355,-223
425,-180,476,-420,308,265,-256
426,-134,696,-577,620,119,-47
427,18,1028,-578,835,-39,316
428,134,1247,-500,805,-131,294
429,129,1243,-660,596,-145,-71
430,119,1206,-772,462,-191,-132
431,155,1206,-625,414,-272,133
432,162,1170,-464,298,-311,85
433,116,1025,-515,156,-325,-212
434,127,988,-706,172,-395,-283
435,291,1264,-803,321,-513,-102
436,497,1657,-671,343,-561,53
437,592,1834,-461,79,-462,-119
438,563,1713,-398,-300,-305,-439
439,472,1469,-532,-491,-215,-580
440,478,1477,-679,-410,-195,-479
441,632,1865,-679,-252,-176,-316
442,784,2329,-553,-274,-81,-333
443,791,2463,-419,-533,77,-358
444,676,2336,-303,-841,234,-450
445,530,2197,-186,-1022,345,-525
446,428,2077,-134,-1011,373,-474
447,385,2054,-157,-816,307,-411
448,405,2293,-218,-590,226,-301
449,433,2666,-271,-514,205,-97
450,415,2888,-305,-618,221,54
451,390,2923,-366,-765,211,148
452,374,2896,-431,-853,140,146
453,337,2881,-495,-911,35,46
454,326,2917,-576,-945,-87,66
455,390,3042,-648,-875,-229,208
456,514,3214,-706,-712,-350,323
457,654,3351,-702,-511,-404,219
458,723,3290,-657,-290,-385,10
459,765,3095,-597,-5,-313,9
460,807,2981,-518,327,-197,99
461,805,2937,-457,594,-40,128
462,724,2896,-400,757,119,132
463,628,2850,-363,858,213,216
464,594,2807,-356,928,214,303
465,595,2705,-395,963,149,341
466,598,2566,-434,951,60,343
467,549,2397,-472,931,-45,318
468,549,2364,-472,951,-190,358
469,617,2385,-463,918,-336,476
470,706,2317,-474,784,-431,497
471,758,2245,-467,566,-450,270
472,741,2065,-474,311,-418,50
473,721,1856,-445,119,-363,36
474,685,1753,-375,-1,-269,-26
475,617,1689,-353,-55,-154,-92
476,553,1599,-394,-25,-60,88
477,561,1536,-408,63,-5,375
478,615,1536,-374,112,67,408
479,615,1560,-324,47,205,117
480,548,1537,-260,-106,382,-33
481,455,1382,-264,-214,512,123
482,364,1177,-304,-161,543,292
483,308,1146,-315,-24,511,195
484,279,1251,-305,21,494,-57
485,252,1318,-329,-56,508,-106
486,221,1285,-345,-159,510,83
487,174,1199,-337,-249,500,77
488,50,1056,-363,-321,474,-162
489,-106,872,-368,-332,393,-217
490,-196,726,-370,-269,244,-136
491,-224,709,-315,-159,75,-266
492,-246,720,-219,-85,-48,-384
493,-305,647,-249,-20,-151,-283
494,-343,589,-291,128,-303,-116
495,-308,639,-257,321,-482,-12
496,-264,706,-239,441,-631,31
497,-253,723,-308,485,-755,30
498,-184,768,-333,527,-886,92
